File: eS.msa
#FORMAT      : EMSA/MAS Spectral Data File
#VERSION     : 1.0
#DATE        :
#TIME        :
#OWNER       :
#NPOINTS     : 2048
#NCOLUMNS    : 1
#DATATYPE    : Y
#SIGNALTYPE  : EELS
#XPERCHAN    : 1.0
#OFFSET      : -0.0
#XLABEL      : x
#XUNITS      :
#COMMENT     : File created by HyperSpy version 1.3
#TITLE       : sum25_GaNseries1 1024 channels extrapolated
#SPECTRUM    : Spectral Data Starts Here
0.000000,
50.6012,
53.5984,
57.7369,
65.5478,
71.7417,
82.9227,
89.4238,
99.6107,
97.4194,
112.534,
140.736,
148.658,
160.875,
183.677,
213.746,
233.754,
263.207,
318.016,
385.083,
451.021,
560.012,
685.806,
859.128,
1127.31,
1510.45,
2075.77,
2915.38,
4178.76,
6031.01,
8770.56,
12547.6,
17744.2,
24186.1,
31555.8,
38923.7,
44418.9,
46807.8,
45157.4,
39622.5,
31632.7,
22996.6,
15509.3,
9824.5,
6131.46,
3894.58,
2576.45,
1809.75,
1322.1,
1032.9,
824.276,
673.293,
573.217,
471.227,
420.147,
354.784,
316.913,
280.627,
262.102,
240.65,
223.838,
196.216,
180.299,
172.872,
158.291,
155.94,
149.197,
130.8,
144.394,
123.719,
130.315,
121.023,
133.184,
128.838,
130.803,
119.087,
124.25,
120.501,
107.776,
123.242,
107.37,
117.355,
117.619,
100.956,
110.395,
112.735,
111.364,
106.079,
102.192,
101.709,
105.79,
109.748,
110.462,
107.278,
100.401,
106.741,
101.674,
113.803,
109.088,
102.845,
109.612,
113.528,
117.761,
116.574,
111.786,
115.223,
125.435,
124.486,
133.668,
135.087,
125.506,
137.2,
130.32,
144.086,
140.737,
141.711,
134.664,
133.294,
139.965,
138.333,
141.574,
143.694,
136.061,
157.151,
142.904,
144.018,
151.928,
156.708,
142.374,
154.392,
155.559,
152.278,
157.351,
159.091,
150.47,
158.145,
159.991,
156.272,
149.676,
159.167,
152.837,
159.55,
157.647,
159.227,
162.885,
156.129,
156.012,
155.924,
163.343,
162.452,
161.127,
161.42,
169.324,
168.578,
173.556,
171.206,
169.178,
165.479,
167.799,
178.164,
177.413,
183.863,
174.846,
174.167,
187.464,
186.803,
189.808,
194.582,
196.62,
204.155,
203.633,
211.345,
215.075,
214.878,
224.575,
225.756,
235.624,
241.978,
244.021,
258.459,
249.696,
256.002,
266.446,
256.728,
273.109,
276.589,
276.833,
277.571,
288.209,
292.5,
296.417,
304.676,
302.199,
317.735,
317.796,
315.117,
319.615,
328.807,
330.015,
328.424,
322.549,
345.217,
350.516,
357.11,
361.082,
369.852,
377.541,
383.647,
399.177,
403.208,
405.214,
409.182,
419.598,
433.594,
440.353,
443.975,
448.362,
449.464,
456.446,
467.231,
467.278,
477.742,
480.491,
483.4,
500.225,
490.868,
499.143,
501.163,
503.455,
505.369,
502.551,
507.08,
502.151,
491.53,
480.049,
463.2,
453.982,
445.193,
453.098,
435.89,
418.055,
415.712,
392.878,
390.886,
379.991,
387.129,
357.437,
355.422,
349.583,
341.652,
339.282,
330.945,
330.434,
316.528,
321.296,
316.05,
313.694,
312.823,
295.239,
311.361,
317.798,
311.376,
330.648,
325.056,
329.939,
328.071,
334.987,
339.055,
332.895,
341.071,
329.269,
335.515,
333.413,
341.046,
334.802,
327.374,
331.617,
323.659,
311.264,
313.652,
311.528,
301.237,
310.425,
287.259,
283.439,
281.691,
284.916,
274.744,
276.596,
270.581,
266.089,
269.12,
258.769,
261.879,
253.783,
258.911,
260.571,
257.706,
257.04,
261.079,
257.042,
259.588,
254.185,
250.699,
255.516,
251.02,
250.54,
245.478,
251.539,
235.567,
247.376,
243.574,
239.406,
244.024,
241.259,
239.978,
240.902,
245.041,
240.773,
241.265,
248.269,
246.328,
248.127,
250.326,
245.622,
253.861,
246.348,
243.444,
243.643,
237.205,
238.326,
236.678,
232.271,
226.008,
236.552,
230.574,
216.8,
224.37,
228.505,
221.612,
215.531,
215.66,
216.383,
211.215,
208.466,
214.746,
216.997,
211.25,
210.772,
203.291,
201.828,
192.698,
197.176,
201.972,
195.466,
204.18,
196.114,
188.88,
199.168,
187.51,
196.389,
191.574,
187.741,
187.757,
178.223,
183.022,
179.478,
179.598,
182.893,
177.098,
172.812,
168.206,
176.231,
180.944,
171.099,
168.03,
167.094,
170.042,
167.082,
162.046,
165.136,
164.071,
160.977,
153.011,
154.145,
157.31,
151.874,
153.14,
155.615,
154.833,
144.318,
156.184,
162.706,
151.198,
146.873,
152.132,
153.563,
139.835,
144.12,
142.329,
152.484,
142.745,
149.829,
144.961,
150.73,
150.924,
145.546,
143.277,
149.024,
141.114,
138.105,
145.557,
143.062,
135.907,
145.524,
140.286,
137.109,
133.174,
139.471,
136.323,
142.211,
134.403,
135.509,
129.678,
135.297,
123.288,
140.608,
135.616,
142.044,
136.188,
141.317,
129.983,
132.745,
132.359,
133.058,
143.942,
128.209,
136.266,
141.6,
136.917,
132.303,
126.939,
124.179,
124.075,
131.209,
125.155,
123.517,
128.357,
124.964,
135.089,
133.776,
127.745,
132.973,
123.465,
122.873,
127.772,
125.87,
129.951,
118.985,
124.705,
129.168,
125.243,
132.225,
126.538,
132.776,
134.139,
118.848,
119.838,
120.154,
130.242,
125.695,
129.629,
127.719,
119.403,
123.851,
123.398,
133.301,
123.895,
120.059,
124.666,
120.897,
127.213,
123.002,
126.118,
129.34,
115.537,
119.468,
118.239,
123.465,
117.269,
122.35,
120.338,
121.554,
123.921,
111.882,
118.099,
119.019,
118.579,
110.336,
117.05,
118.984,
117.519,
123.024,
117.474,
124.697,
123.405,
116.081,
125.057,
113.535,
112.59,
116.898,
118.315,
112.827,
111.929,
111.04,
110.16,
109.289,
108.426,
107.571,
106.725,
105.888,
105.058,
104.237,
103.423,
102.617,
101.819,
101.029,
100.247,
99.4717,
98.7041,
97.9439,
97.191,
96.4452,
95.7066,
94.9749,
94.2502,
93.5324,
92.8214,
92.1171,
91.4194,
90.7283,
90.0437,
89.3655,
88.6936,
88.028,
87.3686,
86.7154,
86.0682,
85.427,
84.7917,
84.1623,
83.5388,
82.9209,
82.3087,
81.7022,
81.1012,
80.5057,
79.9156,
79.3309,
78.7515,
78.1773,
77.6084,
77.0446,
76.4859,
75.9322,
75.3835,
74.8397,
74.3008,
73.7667,
73.2374,
72.7128,
72.1929,
71.6775,
71.1668,
70.6606,
70.1588,
69.6615,
69.1685,
68.6799,
68.1956,
67.7155,
67.2396,
66.7679,
66.3003,
65.8367,
65.3772,
64.9216,
64.47,
64.0223,
63.5785,
63.1385,
62.7023,
62.2698,
61.841,
61.4159,
60.9944,
60.5765,
60.1621,
59.7513,
59.344,
58.9401,
58.5396,
58.1426,
57.7488,
57.3584,
56.9712,
56.5873,
56.2066,
55.8291,
55.4548,
55.0835,
54.7154,
54.3503,
53.9882,
53.6291,
53.273,
52.9199,
52.5696,
52.2222,
51.8777,
51.536,
51.1971,
50.8609,
50.5275,
50.1968,
49.8688,
49.5435,
49.2208,
48.9007,
48.5832,
48.2683,
47.9559,
47.646,
47.3386,
47.0336,
46.7311,
46.431,
46.1334,
45.838,
45.5451,
45.2544,
44.9661,
44.68,
44.3962,
44.1147,
43.8353,
43.5582,
43.2832,
43.0104,
42.7397,
42.4712,
42.2047,
41.9404,
41.678,
41.4177,
41.1595,
40.9032,
40.6489,
40.3966,
40.1462,
39.8978,
39.6512,
39.4066,
39.1638,
38.9229,
38.6839,
38.4466,
38.2112,
37.9775,
37.7457,
37.5156,
37.2872,
37.0605,
36.8356,
36.6124,
36.3908,
36.1709,
35.9527,
35.7361,
35.5211,
35.3077,
35.096,
34.8858,
34.6771,
34.47,
34.2645,
34.0605,
33.8579,
33.6569,
33.4574,
33.2593,
33.0627,
32.8675,
32.6738,
32.4815,
32.2906,
32.101,
31.9129,
31.7261,
31.5407,
31.3567,
31.1739,
30.9925,
30.8124,
30.6337,
30.4562,
30.2799,
30.105,
29.9313,
29.7588,
29.5876,
29.4176,
29.2488,
29.0812,
28.9148,
28.7496,
28.5856,
28.4227,
28.261,
28.1004,
27.941,
27.7827,
27.6255,
27.4694,
27.3144,
27.1605,
27.0076,
26.8559,
26.7052,
26.5555,
26.4069,
26.2593,
26.1128,
25.9672,
25.8227,
25.6792,
25.5366,
25.3951,
25.2545,
25.1149,
24.9762,
24.8385,
24.7017,
24.5659,
24.431,
24.297,
24.164,
24.0318,
23.9005,
23.7702,
23.6407,
23.5121,
23.3843,
23.2575,
23.1314,
23.0063,
22.8819,
22.7584,
22.6358,
22.5139,
22.3929,
22.2727,
22.1532,
22.0346,
21.9168,
21.7997,
21.6834,
21.5679,
21.4532,
21.3392,
21.226,
21.1135,
21.0018,
20.8907,
20.7805,
20.6709,
20.5621,
20.4539,
20.3465,
20.2398,
20.1338,
20.0285,
19.9238,
19.8198,
19.7165,
19.6139,
19.512,
19.4107,
19.31,
19.21,
19.1106,
19.0119,
18.9138,
18.8164,
18.7196,
18.6233,
18.5277,
18.4328,
18.3384,
18.2446,
18.1514,
18.0588,
17.9668,
17.8754,
17.7845,
17.6943,
17.6045,
17.5154,
17.4268,
17.3388,
17.2513,
17.1644,
17.078,
16.9922,
16.9069,
16.8221,
16.7379,
16.6542,
16.571,
16.4883,
16.4061,
16.3245,
16.2433,
16.1627,
16.0825,
16.0029,
15.9237,
15.845,
15.7668,
15.6891,
15.6119,
15.5351,
15.4588,
15.383,
15.3076,
15.2327,
15.1582,
15.0842,
15.0106,
14.9375,
14.8649,
14.7926,
14.7208,
14.6495,
14.5785,
14.508,
14.438,
14.3683,
14.2991,
14.2302,
14.1618,
14.0938,
14.0262,
13.959,
13.8922,
13.8258,
13.7598,
13.6942,
13.629,
13.5641,
13.4997,
13.4356,
13.3719,
13.3086,
13.2456,
13.1831,
13.1208,
13.059,
12.9975,
12.9364,
12.8756,
12.8152,
12.7552,
12.6954,
12.6361,
12.5771,
12.5184,
12.46,
12.402,
12.3444,
12.2871,
12.2301,
12.1734,
12.117,
12.061,
12.0053,
11.95,
11.8949,
11.8402,
11.7857,
11.7316,
11.6778,
11.6243,
11.5711,
11.5182,
11.4656,
11.4133,
11.3613,
11.3096,
11.2582,
11.207,
11.1562,
11.1057,
11.0554,
11.0054,
10.9557,
10.9063,
10.8571,
10.8083,
10.7597,
10.7114,
10.6633,
10.6155,
10.568,
10.5207,
10.4737,
10.427,
10.3805,
10.3343,
10.2884,
10.2427,
10.1972,
10.152,
10.107,
10.0623,
10.0179,
9.973655,
9.929681,
9.885947,
9.842454,
9.799197,
9.756178,
9.713393,
9.670841,
9.628521,
9.586431,
9.544569,
9.502935,
9.461527,
9.420343,
9.379382,
9.338642,
9.298122,
9.257820,
9.217736,
9.177868,
9.138213,
9.098772,
9.059542,
9.020523,
8.981712,
8.943109,
8.904712,
8.866521,
8.828532,
8.790746,
8.753161,
8.715776,
8.678589,
8.641600,
8.604806,
8.568207,
8.531802,
8.495589,
8.459567,
8.423734,
8.388091,
8.352635,
8.317365,
8.282280,
8.247380,
8.212662,
8.178125,
8.143770,
8.109593,
8.075595,
8.041774,
8.008129,
7.974659,
7.941363,
7.908240,
7.875289,
7.842508,
7.809897,
7.777454,
7.745179,
7.713070,
7.681127,
7.649348,
7.617733,
7.586280,
7.554988,
7.523857,
7.492886,
7.462072,
7.431417,
7.400918,
7.370574,
7.340385,
7.310350,
7.280468,
7.250737,
7.221158,
7.191728,
7.162447,
7.133315,
7.104330,
7.075491,
7.046798,
7.018249,
6.989845,
6.961583,
6.933463,
6.905484,
6.877646,
6.849947,
6.822387,
6.794965,
6.767679,
6.740530,
6.713517,
6.686638,
6.659892,
6.633280,
6.620023,
#ENDOFDATA   : End Of Data and File