File: eZ.msa
#FORMAT      : EMSA/MAS Spectral Data File
#VERSION     : 1.0
#DATE        :
#TIME        :
#OWNER       :
#NPOINTS     : 2048
#NCOLUMNS    : 1
#DATATYPE    : Y
#SIGNALTYPE  : EELS
#XPERCHAN    : 1.0
#OFFSET      : -0.0
#XLABEL      : x
#XUNITS      :
#COMMENT     : File created by HyperSpy version 1.3
#TITLE       : singleframeZL_1D_0.05 1024 channels extrapolated
#SPECTRUM    : Spectral Data Starts Here
34,
37,
32,
15,
-2.000000,
-1.000000,
17,
13,
36,
13,
6.000000,
42,
22,
35,
26,
-5.000000,
22,
11,
24,
0.000000,
25,
32,
36,
13,
-24,
6.000000,
22,
20,
26,
1.000000,
20,
-13,
36,
18,
11,
1.000000,
4.000000,
16,
32,
3.000000,
-3.000000,
9.000000,
18,
-3.000000,
18,
29,
17,
13,
13,
14,
-3.000000,
-3.000000,
20,
-11,
2.000000,
18,
5.000000,
6.000000,
19,
5.000000,
-32,
0.000000,
16,
-8.000000,
24,
2.000000,
15,
31,
16,
14,
40,
-4.000000,
-15,
24,
37,
18,
-10,
18,
19,
2.000000,
-6.000000,
-9.000000,
-1.000000,
1.000000,
10,
26,
25,
3.000000,
13,
18,
26,
14,
-13,
8.000000,
14,
0.000000,
23,
0.000000,
-4.000000,
-9.000000,
29,
21,
29,
18,
-4.000000,
20,
11,
7.000000,
15,
42,
30,
27,
21,
-1.000000,
4.000000,
34,
23,
22,
50,
30,
26,
30,
19,
1.000000,
13,
-12,
9.000000,
7.000000,
38,
35,
25,
14,
16,
0.000000,
4.000000,
8.000000,
36,
21,
13,
13,
10,
22,
7.000000,
33,
25,
35,
2.000000,
21,
27,
-4.000000,
15,
20,
8.000000,
19,
16,
21,
23,
13,
18,
17,
17,
1.000000,
15,
40,
1.000000,
5.000000,
20,
23,
20,
4.000000,
28,
37,
34,
12,
19,
29,
35,
40,
28,
30,
31,
42,
40,
35,
48,
41,
51,
24,
35,
43,
41,
47,
45,
61,
46,
67,
53,
80,
54,
65,
74,
78,
93,
102,
99,
131,
123,
133,
133,
147,
175,
191,
222,
271,
310,
336,
403,
440,
587,
655,
842,
1030,
1419,
1845,
2609,
3620,
5077,
7507,
10940,
15540,
21663,
29175,
37271,
43800,
48008,
48214,
44170,
36546,
27510,
18704,
12163,
7700,
4771,
3173,
2189,
1612,
1203,
960,
770,
649,
535,
438,
373,
319,
303,
279,
236,
194,
166,
149,
131,
156,
132,
109,
80,
96,
74,
51,
84,
67,
63,
76,
60,
48,
56,
71,
49,
65,
55,
40,
37,
47,
48,
42,
40,
12,
53,
44,
47,
18,
21,
34,
32,
29,
17,
35,
30,
11,
18,
35,
25,
34,
36,
17,
28,
3.000000,
-10,
24,
24,
13,
-1.000000,
23,
39,
21,
17,
40,
24,
9.000000,
36,
6.000000,
25,
-1.000000,
-9.000000,
2.000000,
20,
21,
12,
7.000000,
33,
23,
29,
28,
26,
19,
19,
26,
23,
13,
-3.000000,
31,
9.000000,
33,
28,
17,
18,
21,
9.000000,
18,
12,
10,
-11,
15,
16,
-4.000000,
23,
32,
26,
10,
-4.000000,
27,
5.000000,
0.000000,
-4.000000,
14,
14,
-11,
14,
25,
-2.000000,
8.000000,
26,
12,
4.000000,
9.000000,
6.000000,
-7.000000,
-9.000000,
11,
10,
9.000000,
11,
19,
12,
-2.000000,
11,
15,
16,
-5.000000,
15,
21,
6.000000,
7.000000,
14,
14,
16,
-2.000000,
28,
23,
15,
27,
15,
34,
23,
-2.000000,
14,
37,
22,
-3.000000,
8.000000,
6.000000,
-4.000000,
20,
-23,
18,
3.000000,
6.000000,
24,
9.000000,
9.000000,
25,
15,
30,
8.000000,
30,
31,
0.000000,
29,
8.000000,
36,
26,
19,
25,
9.000000,
24,
15,
11,
4.000000,
28,
2.000000,
41,
4.000000,
13,
0.000000,
20,
-1.000000,
16,
26,
19,
16,
3.000000,
15,
30,
5.000000,
-4.000000,
13,
1.000000,
3.000000,
18,
7.000000,
-9.000000,
11,
-12,
35,
8.000000,
-8.000000,
24,
24,
33,
23,
28,
15,
22,
26,
28,
18,
-3.000000,
20,
-15,
31,
22,
18,
10,
18,
43,
-3.000000,
13,
5.000000,
-7.000000,
9.000000,
21,
1.000000,
1.000000,
17,
28,
22,
-16,
-1.000000,
18,
13,
23,
16,
-1.000000,
19,
4.000000,
24,
20,
13,
19,
-2.000000,
20,
28,
8.000000,
11,
11,
11,
11,
11,
11,
11,
11,
11,
11,
11,
11,
11,
11,
11,
11,
11,
11,
11,
11,
11,
11,
11,
11,
11,
11,
11,
11,
11,
11,
11,
11,
11,
11,
11,
11,
11,
11,
11,
11,
11,
11,
11,
11,
11,
11,
11,
11,
11,
11,
11,
11,
11,
11,
11,
11,
11,
11,
11,
11,
11,
11,
11,
11,
11,
11,
11,
11,
11,
11,
11,
11,
11,
11,
11,
11,
11,
11,
11,
11,
11,
11,
11,
11,
11,
11,
11,
11,
11,
11,
11,
11,
11,
11,
11,
11,
11,
11,
11,
11,
11,
11,
11,
11,
11,
11,
11,
11,
11,
11,
11,
11,
11,
11,
11,
11,
11,
11,
11,
11,
11,
11,
11,
11,
11,
11,
11,
11,
11,
11,
11,
11,
11,
11,
11,
11,
11,
11,
11,
11,
11,
11,
11,
11,
11,
11,
11,
11,
11,
11,
11,
11,
11,
11,
11,
11,
11,
11,
11,
11,
11,
11,
11,
11,
11,
11,
11,
11,
11,
11,
11,
11,
11,
11,
11,
11,
11,
11,
11,
11,
11,
11,
11,
11,
11,
11,
11,
11,
11,
11,
11,
11,
11,
11,
11,
11,
11,
11,
11,
11,
11,
11,
11,
11,
11,
11,
11,
11,
11,
11,
11,
11,
11,
11,
11,
11,
11,
11,
11,
11,
11,
11,
11,
11,
11,
11,
11,
11,
11,
11,
11,
11,
11,
11,
11,
11,
11,
11,
11,
11,
11,
11,
11,
11,
11,
11,
11,
11,
11,
11,
11,
11,
11,
11,
11,
11,
11,
11,
11,
11,
11,
11,
11,
11,
11,
11,
11,
11,
11,
11,
11,
11,
11,
11,
11,
11,
11,
11,
11,
11,
11,
11,
11,
11,
11,
11,
11,
11,
11,
11,
11,
11,
11,
11,
11,
11,
11,
11,
11,
11,
11,
11,
11,
11,
11,
11,
11,
11,
11,
11,
11,
11,
11,
11,
11,
11,
11,
11,
11,
11,
11,
11,
11,
11,
11,
11,
11,
11,
11,
11,
11,
11,
11,
11,
11,
11,
11,
11,
11,
11,
11,
11,
11,
11,
11,
11,
11,
11,
11,
11,
11,
11,
11,
11,
11,
11,
11,
11,
11,
11,
11,
11,
11,
11,
11,
11,
11,
11,
11,
11,
11,
11,
11,
11,
11,
11,
11,
11,
11,
11,
11,
11,
11,
11,
11,
11,
11,
11,
11,
11,
11,
11,
11,
11,
11,
11,
11,
11,
11,
11,
11,
11,
11,
11,
11,
11,
11,
11,
11,
11,
11,
11,
11,
11,
11,
11,
11,
11,
11,
11,
11,
11,
11,
11,
11,
11,
11,
11,
11,
11,
11,
11,
11,
11,
11,
11,
11,
11,
11,
11,
11,
11,
11,
11,
11,
11,
11,
11,
11,
11,
11,
11,
11,
11,
11,
11,
11,
11,
11,
11,
11,
11,
11,
11,
11,
11,
11,
11,
11,
11,
11,
11,
11,
11,
11,
11,
11,
11,
11,
11,
11,
11,
11,
11,
11,
11,
11,
11,
11,
11,
11,
11,
11,
11,
11,
11,
11,
11,
11,
11,
11,
11,
11,
11,
11,
11,
11,
11,
11,
11,
11,
11,
11,
#ENDOFDATA   : End Of Data and File